Folder: YKQ

File: Database.csv
Idx_Sample,Mixture Type,Additive Type,SiO2 (%),Al2O3 (%),Fe2O3 (%),CaO (%),MgO (%),LOI (%),Coarse Cggregate (kg/m3),Fine Aggregate (kg/m3),Initial Curing Temp (℃),Final Curing Temp (℃),Nano-Additive (kg/m3),Partical Size (nm),Additive Purity (%),28-d Cubic compressive strength (MPa)
1,Concrete,nano-SiO2,33.06,,,35.37,7.73,0.26,825,825,60,24,0,17,99.88,59.55
2,Concrete,nano-SiO2,33.06,,,35.37,7.73,0.26,825,825,60,24,9,17,99.88,47.48
3,Concrete,nano-SiO2,33.06,,,35.37,7.73,0.26,825,825,60,24,10,17,99.88,47.78
4,Concrete,nano-SiO2,33.06,,,35.37,7.73,0.26,825,825,60,24,9,17,99.88,50.5
5,Concrete,nano-SiO2,33.06,,,35.37,7.73,0.26,825,825,60,24,10,17,99.88,51.7
6,Concrete,nano-SiO2,33.06,,,35.37,7.73,0.26,825,825,60,24,9,17,99.88,56.08
7,Concrete,nano-SiO2,33.06,,,35.37,7.73,0.26,825,825,60,24,10,17,99.88,70.25
8,Concrete,nano-SiO2,36.412,11.379,1.681,34.128,10.31,1.65,777,803,70,23,0,14,99.8,77.54
9,Concrete,nano-SiO2,37.046,11.265,1.664,33.787,10.207,1.646,776,802,70,23,5,14,99.8,78.81
10,Concrete,nano-SiO2,37.68,11.151,1.646,33.446,10.104,1.642,776,801,70,23,10,14,99.8,77.42
11,Concrete,nano-SiO2,38.314,11.036,1.629,33.105,10.001,1.639,775,801,70,23,15,14,99.8,76.19
12,Concrete,nano-SiO2,38.949,10.922,1.612,32.764,9.898,1.635,774,800,70,23,20,14,99.8,73.9
14,blend,nano-SiO2,40.49,16.64,2.49,27.53,7.35,2,0,0,20,20,0,120,98.68,90.41
15,blend,nano-SiO2,48.57,21.09,5.19,14.33,3.97,2.54,0,0,20,20,0,120,98.68,54.04
16,blend,nano-SiO2,41.98,16.54,2.45,26.78,7.17,1.93,0,0,20,20,14,120,98.68,94.86
17,blend,nano-SiO2,50.05,20.96,5.09,14.08,3.9,2.47,0,0,20,20,14,120,98.68,57.02
18,blend,nano-SiO2,43.46,16.45,2.42,26.03,6.99,1.91,0,0,20,20,28,120,98.68,96.08
19,blend,nano-SiO2,51.53,20.84,5.05,13.86,3.86,2.45,0,0,20,20,28,120,98.68,58.81
20,blend,nano-SiO2,44.93,16.36,2.38,25.27,6.81,1.89,0,0,20,20,42,120,98.68,91.76
21,blend,nano-SiO2,50.07,20.47,5.03,13.91,3.85,2.38,0,0,20,20,42,120,98.68,56.77
22,geopolymer,nano-SiO2,54.66,22.27,,,,,0,0,80,60,0,17,99.9,29.71
23,geopolymer,nano-SiO2,54.66,22.27,,,,,0,0,80,60,4.72,17,99.9,31.98
24,geopolymer,nano-SiO2,54.66,22.27,,,,,0,0,80,60,9.43,17,99.9,35.17
25,geopolymer,nano-SiO2,54.66,22.27,,,,,0,0,80,60,14.15,17,99.9,40.17
26,geopolymer,nano-SiO2,54.66,22.27,,,,,0,0,80,60,23.58,17,99.9,42.15
27,geopolymer,nano-SiO2,54.66,22.27,,,,,0,0,80,60,33.01,17,99.9,34.34
28,geopolymer,nano-SiO2,54.66,22.27,,,,,0,0,80,60,47.16,17,99.9,28.51
29,Concrete,nano-SiO2,41.984,9.46,1.369,34.066,5.425,1.625,1099.83,609.83,23,23,0,30,99.5,29.8
30,Concrete,nano-SiO2,42.456,9.377,1.358,33.783,5.376,1.633,1091.3,605.1,23,23,4.5,30,99.5,32.6
31,Concrete,nano-SiO2,42.927,9.293,1.346,33.498,5.328,1.64,1082.78,600.37,23,23,9,30,99.5,34.1
32,Concrete,nano-SiO2,43.405,9.209,1.335,33.214,5.279,1.647,1074.25,595.64,23,23,13.5,30,99.5,35.9
33,Concrete,nano-SiO2,43.882,9.125,1.323,32.928,5.228,1.655,1065.72,590.92,23,23,18,30,99.5,33.4
34,mortar,nano-SiO2,53.4,35.499,2.86,2.14,2.14,,0,613.6,20,20,0,30,99.7,
35,mortar,nano-SiO2,53.4,35.498,2.86,2.14,2.14,,0,613.6,20,20,3.06,30,99.7,
36,mortar,nano-SiO2,53.4,35.499,2.86,2.14,2.14,,0,613.6,20,20,6.14,30,99.7,
37,mortar,nano-SiO2,53.4,35.499,2.86,2.14,2.14,,0,613.6,20,20,9.2,30,99.7,
38,mortar,nano-SiO2,53.4,35.498,2.86,2.14,2.14,,0,613.6,20,20,12.17,30,99.7,
39,mortar,nano-SiO2,53.4,35.498,2.86,2.14,2.14,,0,613.6,20,20,15.34,30,99.7,
40,mortar,nano-SiO2,33.97,8.05,2.36,38.88,3.43,0.7,0,1040,23,23,0,25,98,46.94
41,mortar,nano-SiO2,33.97,8.05,2.36,38.88,3.43,0.7,0,1040,23,23,0,25,98,69.96
42,mortar,nano-SiO2,33.97,8.05,2.36,38.88,3.43,0.7,0,1040,23,23,6.5,25,98,50.46
43,mortar,nano-SiO2,33.97,8.05,2.36,38.88,3.43,0.7,0,1040,23,23,6.5,25,98,48.63
44,mortar,nano-SiO2,33.97,8.05,2.36,38.88,3.43,0.7,0,1040,23,23,13,25,98,43.82
45,mortar,nano-SiO2,33.97,8.05,2.36,38.88,3.43,0.7,0,1040,23,23,13,25,98,59.82
46,Concrete,nano-SiO2,33.59,11.01,1.38,34.07,5.43,2.68,907,790,20,28,0,14,99.65,38
47,Concrete,nano-SiO2,33.59,11.01,1.38,34.07,5.43,2.68,907,790,20,28,10,14,99.65,42
48,Concrete,nano-SiO2,33.59,11.01,1.38,34.07,5.43,2.68,907,790,20,28,20,14,99.65,48
49,Concrete,nano-SiO2,33.59,11.01,1.38,34.07,5.43,2.68,907,790,20,28,30,14,99.65,45
50,Concrete,nano-SiO2,33.59,11.01,1.38,34.07,5.43,2.68,907,790,20,28,40,14,99.65,43
51,Concrete,nano-SiO2,49.365,16.265,4.42,17.86,6.35,1.61,742.88,865.61,70,24,0,,99.8,60.7
52,Concrete,nano-SiO2,49.365,16.265,4.42,17.86,6.35,1.61,740.34,862.65,70,24,5,,99.8,58.4
53,Concrete,nano-SiO2,49.365,16.265,4.42,17.86,6.35,1.61,737.8,859.69,70,24,10,,99.8,57.7
54,Concrete,nano-SiO2,,,,,,,1000,816,,,0,40,99.8,66.17
55,Concrete,nano-SiO2,,,,,,,1000,767,,,18,40,99.8,71.49
56,Concrete,nano-SiO2,,,,,,,1000,718,,,36,40,99.8,78.63
57,geopolymer,nano-SiO2,60.1,25.8,2.58,2.53,0.65,,,,80,20,0,12,99.98,15.37
58,geopolymer,nano-SiO2,60.1,25.8,2.58,2.53,0.65,,,,80,20,1,12,99.98,17.17
59,geopolymer,nano-SiO2,60.1,25.8,2.58,2.53,0.65,,,,80,20,2,12,99.98,22.48
60,geopolymer,nano-SiO2,60.1,25.8,2.58,2.53,0.65,,,,80,20,3,12,99.98,18.29
61,paste,nano-SiO2,57.2,24.4,6.1,4.24,2.4,1.58,0,0,35,35,0,17,99.8,34.29
62,paste,nano-SiO2,57.2,24.4,6.1,4.24,2.4,1.58,0,0,35,35,0.2,18,99.8,46.05
63,paste,nano-SiO2,57.2,24.4,6.1,4.24,2.4,1.58,0,0,35,35,0.4,18,99.8,54.59
64,paste,nano-SiO2,57.2,24.4,6.1,4.24,2.4,1.58,0,0,35,35,0.6,18,99.8,63.47
65,paste,nano-SiO2,57.2,24.4,6.1,4.24,2.4,1.58,0,0,35,35,0.8,18,99.8,71.9
66,paste,nano-SiO2,57.2,24.4,6.1,4.24,2.4,1.58,0,0,35,35,1,18,99.8,69.35
67,paste,nano-SiO2,57.2,24.4,6.1,4.24,2.4,1.58,0,0,35,35,1.2,18,99.8,67.79
68,paste,nano-SiO2,57.2,24.4,6.1,4.24,2.4,1.58,0,0,35,35,1.4,18,99.8,64.02
69,slag,nano-SiO2,32.48,16.34,0.65,37.28,8.56,1.63,0,0,20,20,0,30,99.95,48.76
70,slag,nano-SiO2,32.48,16.34,0.65,37.28,8.56,1.63,0,0,20,20,8.6,30,99.95,49.62
71,slag,nano-SiO2,32.48,16.34,0.65,37.28,8.56,1.63,0,0,20,20,17.2,30,99.95,53.62
72,slag,nano-SiO2,32.48,16.34,0.65,37.28,8.56,1.63,0,0,20,20,34.4,30,99.95,54.18
73,slag,nano-SiO2,32.48,16.34,0.65,37.28,8.56,1.63,0,0,20,20,51.6,30,99.95,52.86
74,geopolymer,nano-SiO2,44.514,26.232,3.893,16.595,3.14,0.265,0,0,20,20,0,50,,78.91
75,geopolymer,nano-SiO2,44.514,26.232,3.893,16.595,3.14,0.265,0,0,20,20,0.5,50,,84.15
76,geopolymer,nano-SiO2,44.514,26.232,3.893,16.595,3.14,0.265,0,0,20,20,1,50,,88.54
77,geopolymer,nano-SiO2,44.514,26.232,3.893,16.595,3.14,0.265,0,0,20,20,1.5,50,,81.8
78,geopolymer,nano-SiO2,44.514,26.232,3.893,16.595,3.14,0.265,0,0,20,20,1,50,,79.55
79,geopolymer,nano-SiO2,44.514,26.232,3.893,16.595,3.14,0.265,0,0,20,20,1,100,,85.57
80,geopolymer,nano-SiO2,44.514,26.232,3.893,16.595,3.14,0.265,0,0,20,20,1,10,,94.9
81,mortar,nano-SiO2,64.97,26.64,5.69,0.33,0.85,0.45,0,,60,27,0,10,99,18.57
82,mortar,nano-SiO2,64.97,26.64,5.69,0.33,0.85,0.45,0,,27,27,4,10,99,14.04
83,mortar,nano-SiO2,64.97,26.64,5.69,0.33,0.85,0.45,0,,27,27,6,10,99,18.02
84,mortar,nano-SiO2,64.97,26.64,5.69,0.33,0.85,0.45,0,,27,27,8,10,99,19.06
85,mortar,nano-SiO2,64.97,26.64,5.69,0.33,0.85,0.45,0,,27,27,10,10,99,19
86,mortar,nano-SiO2,64.97,26.64,5.69,0.33,0.85,0.45,0,,27,27,4,10,99,30.98
87,mortar,nano-SiO2,64.97,26.64,5.69,0.33,0.85,0.45,0,,27,27,6,10,99,36.44
88,mortar,nano-SiO2,64.97,26.64,5.69,0.33,0.85,0.45,0,,27,27,8,10,99,35.88
89,mortar,nano-SiO2,64.97,26.64,5.69,0.33,0.85,0.45,0,,27,27,10,10,99,33.86
90,mortar,nano-SiO2,64.97,26.64,5.69,0.33,0.85,0.45,0,,60,27,0,10,99,37.22
91,mortar,nano-SiO2,64.97,26.64,5.69,0.33,0.85,0.45,0,,27,27,4,10,99,42.84
92,mortar,nano-SiO2,64.97,26.64,5.69,0.33,0.85,0.45,0,,27,27,6,10,99,42.48
93,mortar,nano-SiO2,64.97,26.64,5.69,0.33,0.85,0.45,0,,27,27,8,10,99,39.88
94,mortar,nano-SiO2,64.97,26.64,5.69,0.33,0.85,0.45,0,,27,27,10,10,99,36.89
95,Concrete,nano-SiO2,59.197,24.363,7.074,2.235,1.404,1.517,1150,575,70,23,0,,99.8,51.52
96,Concrete,nano-SiO2,59.197,24.363,7.074,2.235,1.404,1.517,1150,575,70,23,15,,99.8,48.19
97,Concrete,nano-SiO2,62.352,21.137,7.347,1.568,2.35,2.071,1150,575,70,23,0,,99.8,44.61
98,Concrete,nano-SiO2,62.352,21.137,7.347,1.568,2.35,2.071,1150,575,70,23,15,,99.8,42.53
99,binder,nano-SiO2,22.535,8.395,11.785,37.95,8.655,1.255,0,0,20,20,0,30,99.82,48.22
100,binder,nano-SiO2,22.535,8.395,11.785,37.95,8.655,1.255,0,0,20,20,0.5,30,99.82,48.41
101,binder,nano-SiO2,22.535,8.395,11.785,37.95,8.655,1.255,0,0,20,20,1,30,99.82,51.79
102,binder,nano-SiO2,22.535,8.395,11.785,37.95,8.655,1.255,0,0,20,20,1.5,30,99.82,53.99
103,binder,nano-SiO2,22.535,8.395,11.785,37.95,8.655,1.255,0,0,20,20,2,30,99.82,54.26
104,binder,nano-SiO2,22.535,8.395,11.785,37.95,8.655,1.255,0,0,20,20,2.5,30,99.82,59.75
105,binder,nano-SiO2,22.535,8.395,11.785,37.95,8.655,1.255,0,0,20,20,3,30,99.82,63.23
106,binder,nano-SiO2,22.535,8.395,11.785,37.95,8.655,1.255,0,0,20,20,3.5,30,99.82,62.13
107,binder,nano-SiO2,22.535,8.395,11.785,37.95,8.655,1.255,0,0,20,20,4,30,99.82,59.66
108,binder,nano-SiO2,22.535,8.395,11.785,37.95,8.655,1.255,0,0,20,20,5,30,99.82,57.01
109,binder,nano-SiO2,22.535,8.395,11.785,37.95,8.655,1.255,0,0,20,20,6,30,99.82,53.07
110,binder,nano-SiO2,22.535,8.395,11.785,37.95,8.655,1.255,0,0,20,20,0.5,15,99.99,52.44
111,binder,nano-SiO2,22.535,8.395,11.785,37.95,8.655,1.255,0,0,20,20,1,15,99.99,55.25
112,binder,nano-SiO2,22.535,8.395,11.785,37.95,8.655,1.255,0,0,20,20,1.5,15,99.99,59.42
113,binder,nano-SiO2,22.535,8.395,11.785,37.95,8.655,1.255,0,0,20,20,2,15,99.99,60.22
114,binder,nano-SiO2,22.535,8.395,11.785,37.95,8.655,1.255,0,0,20,20,2.5,15,99.99,50.52
115,geopolymer,nano-SiO2,59.6,38,1.3,0.24,0.24,0.46,0,0,80,20,0,10,99.9,
116,geopolymer,nano-SiO2,59.6,38,1.3,0.24,0.24,0.46,0,0,80,20,10,10,99.9,
117,geopolymer,nano-SiO2,59.6,38,1.3,0.24,0.24,0.46,0,0,80,20,20,10,99.9,
118,geopolymer,nano-SiO2,59.6,38,1.3,0.24,0.24,0.46,0,0,80,20,30,10,99.9,
119,geopolymer,nano-SiO2,59.6,38,1.3,0.24,0.24,0.46,0,0,80,20,0,10,99.9,
120,geopolymer,nano-SiO2,59.6,38,1.3,0.24,0.24,0.46,0,0,80,20,10,10,99.9,
121,geopolymer,nano-SiO2,59.6,38,1.3,0.24,0.24,0.46,0,0,80,20,20,10,99.9,
122,geopolymer,nano-SiO2,59.6,38,1.3,0.24,0.24,0.46,0,0,80,20,30,10,99.9,
123,geopolymer,nano-SiO2,59.6,38,1.3,0.24,0.24,0.46,0,0,80,20,0,10,99.9,
124,geopolymer,nano-SiO2,59.6,38,1.3,0.24,0.24,0.46,0,0,80,20,10,10,99.9,
125,geopolymer,nano-SiO2,59.6,38,1.3,0.24,0.24,0.46,0,0,80,20,20,10,99.9,
126,geopolymer,nano-SiO2,59.6,38,1.3,0.24,0.24,0.46,0,0,80,20,30,10,99.9,
127,geopolymer,nano-SiO2,59.6,38,1.3,0.24,0.24,0.46,0,0,80,20,0,10,99.9,
128,geopolymer,nano-SiO2,59.6,38,1.3,0.24,0.24,0.46,0,0,80,20,10,10,99.9,
129,geopolymer,nano-SiO2,59.6,38,1.3,0.24,0.24,0.46,0,0,80,20,20,10,99.9,
130,geopolymer,nano-SiO2,59.6,38,1.3,0.24,0.24,0.46,0,0,80,20,30,10,99.9,
131,geopolymer,nano-SiO2,,,,,,,0,613.6,20,20,0,30,99,46.91
132,geopolymer,nano-SiO2,,,,,,,0,613.6,20,20,3.06,30,99,47.72
133,geopolymer,nano-SiO2,,,,,,,0,613.6,20,20,6.14,30,99,50.84
134,geopolymer,nano-SiO2,,,,,,,0,613.6,20,20,9.2,30,99,53.65
135,geopolymer,nano-SiO2,,,,,,,0,613.6,20,20,12.27,30,99,53.3
136,geopolymer,nano-SiO2,,,,,,,0,613.6,20,20,15.34,30,99,50.79
137,Concrete,nano-SiO2,38.15,11.64,1.59,30.8,6.65,2,612.28,1104.27,23,23,0,,99.5,
138,Concrete,nano-SiO2,38.15,11.64,1.59,30.8,6.65,2,607.55,1095.72,23,23,4.5,,99.5,
139,Concrete,nano-SiO2,38.15,11.64,1.59,30.8,6.65,2,602.82,1087.2,23,23,9,,99.5,
140,Concrete,nano-SiO2,38.15,11.64,1.59,30.8,6.65,2,598.1,1078.67,23,23,13.5,,99.5,
141,Concrete,nano-SiO2,38.15,11.64,1.59,30.8,6.65,2,593.37,1070.14,23,23,18,,99.5,
142,Concrete,nano-SiO2,35.85,13.39,1.06,37.71,9.1,1.4,55,45,23,23,0,25,99.8,56.3
143,Concrete,nano-SiO2,35.85,13.39,1.06,37.71,9.1,1.4,55,45,23,23,2.07,25,99.8,57.5
144,Concrete,nano-SiO2,35.85,13.39,1.06,37.71,9.1,1.4,55,45,23,23,4.14,25,99.8,60
145,Concrete,nano-SiO2,35.85,13.39,1.06,37.71,9.1,1.4,55,45,23,23,12.42,25,99.8,63
146,Concrete,nano-SiO2,35.85,13.39,1.06,37.71,9.1,1.4,55,45,23,23,20.7,25,99.8,52
147,geopolymer,nano-SiO2,46.69,29.14,13.81,3.29,1.4,0.68,0,0,20,20,0,15,99.5,29.16
148,geopolymer,nano-SiO2,46.69,29.14,13.81,3.29,1.4,0.68,0,0,20,20,2,15,99.5,43.07
149,geopolymer,nano-SiO2,46.69,29.14,13.81,3.29,1.4,0.68,0,0,20,20,4,15,99.5,54.22
150,geopolymer,nano-SiO2,46.69,29.14,13.81,3.29,1.4,0.68,0,0,20,20,6,15,99.5,56.47
151,geopolymer,nano-SiO2,46.69,29.14,13.81,3.29,1.4,0.68,0,0,20,20,8,15,99.5,66.91
152,geopolymer,nano-SiO2,46.69,29.14,13.81,3.29,1.4,0.68,0,0,20,20,10,15,99.5,61.79
153,geopolymer,nano-SiO2,46.69,29.14,13.81,3.29,1.4,0.68,0,0,20,20,12,15,99.5,56.16
154,geopolymer,nano-SiO2,44.131,26.696,12.699,9.321,1.52,0.812,0,0,20,20,0,15,99.5,27.96
155,geopolymer,nano-SiO2,44.118,26.684,12.693,9.351,1.521,0.813,0,0,20,20,2,15,99.5,33.26
156,geopolymer,nano-SiO2,44.105,26.671,12.688,9.382,1.521,0.813,0,0,20,20,4,15,99.5,49.83
157,geopolymer,nano-SiO2,44.092,26.659,12.682,9.413,1.522,0.814,0,0,20,20,6,15,99.5,58.78
158,geopolymer,nano-SiO2,44.079,26.646,12.676,9.444,1.522,0.815,0,0,20,20,8,15,99.5,64.86
159,geopolymer,nano-SiO2,44.065,26.633,12.671,9.476,1.523,0.815,0,0,20,20,10,15,99.5,34.81
160,geopolymer,nano-SiO2,44.052,26.62,12.665,9.508,1.524,0.816,0,0,20,20,12,15,99.5,38.45
161,geopolymer,nano-SiO2,44.18,26.607,11.817,9.614,1.625,0.937,0,0,20,20,0,15,99.5,38.38
162,geopolymer,nano-SiO2,44.168,26.594,11.806,9.646,1.626,0.938,0,0,20,20,2,15,99.5,39.05
163,geopolymer,nano-SiO2,44.155,26.581,11.796,9.678,1.627,0.939,0,0,20,20,4,15,99.5,55.5
164,geopolymer,nano-SiO2,44.142,26.568,11.786,9.71,1.628,0.94,0,0,20,20,6,15,99.5,58.97
165,geopolymer,nano-SiO2,44.129,26.555,11.776,9.743,1.63,0.942,0,0,20,20,8,15,99.5,72.28
166,geopolymer,nano-SiO2,44.116,26.542,11.765,9.776,1.631,0.943,0,0,20,20,10,15,99.5,50.46
167,geopolymer,nano-SiO2,44.103,26.528,11.755,9.81,1.632,0.944,0,0,20,20,12,15,99.5,47.44
168,geopolymer,nano-SiO2,42,21.24,3.291,21.44,5.126,,0,1447,20,20,0,,99.9,35.83
169,geopolymer,nano-SiO2,41.998,21.239,3.291,21.442,5.127,,0,1447,20,20,5.5,,99.9,37.16
170,geopolymer,nano-SiO2,42,21.24,3.292,21.44,5.126,,0,1447,20,20,11,,99.9,37.9
171,geopolymer,nano-SiO2,41.998,21.239,3.291,21.442,5.127,,0,1447,20,20,16.5,,99.9,36.72
172,mortar,nano-SiO2,34.32,13.368,6.513,27.973,6.968,2.588,,1200,20,20,0,23,99.8,53.82
173,mortar,nano-SiO2,34.32,13.368,6.513,27.973,6.968,2.588,,1200,20,20,3,23,99.8,56.14
174,mortar,nano-SiO2,34.32,13.368,6.513,27.973,6.968,2.588,,1200,20,20,6,23,99.8,58.45
175,mortar,nano-SiO2,34.32,13.368,6.513,27.973,6.968,2.588,,1200,20,20,9,23,99.8,62.22
176,mortar,nano-SiO2,34.32,13.368,6.513,27.973,6.968,2.588,,1200,20,20,12,23,99.8,65.7
177,mortar,nano-SiO2,34.32,13.368,6.513,27.973,6.968,2.588,,1200,20,20,15,23,99.8,57.29
178,Concrete,nano-SiO2,40.48,12.9,17.62,11.83,8.33,,1206,650,23,23,0,35,99,25.67
179,Concrete,nano-SiO2,40.48,12.9,17.62,11.83,8.33,,1200,646,23,23,8,35,99,28.09
180,Concrete,nano-SiO2,40.48,12.9,17.62,11.83,8.33,,1188,640,23,23,20,35,99,29.56
181,Concrete,nano-SiO2,40.48,12.9,17.62,11.83,8.33,,1170,630,23,23,40,35,99,45.11
182,Concrete,nano-SiO2,40.48,12.9,17.62,11.83,8.33,,1152,620,23,23,60,35,99,38.02
183,Concrete,nano-SiO2,,,,,,,1176,595,105,105,0,10,99.9,41.03
184,Concrete,nano-SiO2,,,,,,,1176,595,105,105,4.05,10,99.9,41.84
185,Concrete,nano-SiO2,,,,,,,1176,595,105,105,8.1,10,99.9,42.65
186,Concrete,nano-SiO2,,,,,,,1176,595,105,105,12.15,10,99.9,43.65
187,Concrete,nano-SiO2,,,,,,,1176,595,105,105,16.2,10,99.9,45.21
188,Concrete,nano-SiO2,,,,,,,1176,595,105,105,20.25,10,99.9,44.83
189,Concrete,nano-SiO2,,,,,,,1176,595,105,105,25.3,10,99.9,44.33
190,Concrete,nano-SiO2,,,,,,,1200,800,,,0,50,99.8,31.08
191,Concrete,nano-SiO2,,,,,,,1200,800,,,3,50,99.8,37.83
192,Concrete,nano-SiO2,,,,,,,1200,800,,,6,50,99.8,44.51
193,Concrete,nano-SiO2,,,,,,,1200,800,,,9,50,99.8,46.07
194,Concrete,nano-SiO2,55,22,5,6,3,2,1294.64,554.4,60,23,0,12,99.8,35.98
196,Concrete,nano-SiO2,55,22,5,6,3,2,1294.64,554.4,60,23,3.8,12,99.8,38.4
198,Concrete,nano-SiO2,55,22,5,6,3,2,1294.64,554.4,60,23,0,12,99.8,38.65
200,Concrete,nano-SiO2,55,22,5,6,3,2,1294.64,554.4,60,23,3.8,12,99.8,40.95
202,Concrete,nano-SiO2,55,22,5,6,3,2,1294.64,554.4,60,23,0,12,99.8,39.24
204,Concrete,nano-SiO2,55,22,5,6,3,2,1294.64,554.4,60,23,3.8,12,99.8,41.64
206,paste,nano-SiO2,21.07,9.65,27.33,32.58,0.45,,0,0,23,23,0,,99.59,16.92
208,paste,nano-SiO2,21.07,9.65,27.33,32.58,0.45,,0,0,23,23,4,,99.59,22.28
210,mortar,nano-SiO2,56.185,37.734,2.92,1.589,0.26,0.953,0,613.6,20,20,0,30,99.7,100.92
212,mortar,nano-SiO2,56.185,37.734,2.92,1.589,0.26,0.953,0,613.6,20,20,6.1,30,99.7,107.86
214,mortar,nano-SiO2,56.185,37.734,2.92,1.589,0.26,0.953,0,613.6,20,20,12.2,30,99.7,111.04
216,Concrete,nano-SiO2,53.135,27.715,4.337,7.803,2.807,0.85,1470,490,31,31,0,20,99.9,56.67
218,Concrete,nano-SiO2,53.186,27.737,4.33,7.754,2.791,0.846,1470,490,31,31,1.47,20,99.9,57.16
220,Concrete,nano-SiO2,53.237,27.759,4.323,7.705,2.775,0.842,1470,490,31,31,2.9,20,99.9,58.92
222,geopolymer,nano-SiO2,63.13,24.88,3.07,2.58,0.61,1.45,0,0,80,23,0,22,,37.29
224,geopolymer,nano-SiO2,63.13,24.88,3.07,2.58,0.61,1.45,0,0,80,23,10,22,,40.17
226,geopolymer,nano-SiO2,63.13,24.88,3.07,2.58,0.61,1.45,0,0,80,23,30,22,,42.61
228,Concrete,nano-SiO2,62.5,17.1,2.5,2.05,0.95,0.95,1249,582,27,27,4.37,,99.35,23.47
230,Concrete,nano-SiO2,62.5,17.1,2.5,2.05,0.95,0.95,1249,582,27,27,13.11,,99.35,30.04
232,geopolymer,nano-SiO2,57.34,22.05,7.92,2.71,1.79,,0,1350,90,23,0,20,98.61,
234,geopolymer,nano-SiO2,57.34,22.05,7.92,2.71,1.79,,0,1350,90,23,9,20,98.61,
236,geopolymer,nano-SiO2,57.34,22.05,7.92,2.71,1.79,,0,1350,90,23,0,20,98.61,
[...]
572,geopolymer,nano-TiO2,53,43.8,0.43,0.02,0.03,0.46,0,0,25,25,0,21,,43.78
573,geopolymer,nano-TiO2,53,43.8,0.43,0.02,0.03,0.46,0,0,25,25,17.78,21,,52.26
574,geopolymer,nano-TiO2,53,43.8,0.43,0.02,0.03,0.46,0,0,25,25,35.41,21,,52.94
575,geopolymer,nano-TiO2,53,43.8,0.43,0.02,0.03,0.46,0,0,25,25,87.44,21,,54.08
576,geopolymer,nano-TiO2,53,43.8,0.43,0.02,0.03,0.46,0,0,25,25,171.36,21,,62.16
577,concrete,nano-Al2O3,49.097,25.274,9.201,7.852,2.154,1.458,1293.6,554.4,23,23,0,35,99.9,26.54
578,concrete,nano-Al2O3,49.097,25.274,9.201,7.852,2.154,1.458,1293.6,554.4,23,23,3.8,35,99.9,28.3
579,concrete,nano-Al2O3,49.097,25.274,9.201,7.852,2.154,1.458,1293.6,554.4,23,23,7.6,35,99.9,30.62
580,concrete,nano-Al2O3,49.097,25.274,9.201,7.852,2.154,1.458,1293.6,554.4,23,23,11.4,35,99.9,27.43
581,concrete,nano-Al2O3,49.097,25.274,9.201,7.852,2.154,1.458,1293.6,554.4,23,23,15.2,35,99.9,25.42
582,paste,nano-Fe203,51,12.7,0.3,25.4,7.3,0.1,0,0,,,0,33,99.2,61.93
583,paste,nano-Fe203,51,12.7,0.3,25.4,7.3,0.1,0,0,,,0.25,33,99.2,68.23
584,paste,nano-Fe203,51,12.7,0.3,25.4,7.3,0.1,0,0,,,0.5,33,99.2,63.85
585,paste,nano-Fe203,51,12.7,0.3,25.4,7.3,0.1,0,0,,,1,33,99.2,63.18
586,geopolymer,nano-CaCO3,50.81,22.31,6.43,8.67,1.42,1.46,0,0,70,20,9,40,99,7.8
587,geopolymer,nano-CaCO3,50.81,22.31,6.43,8.67,1.42,1.46,0,0,70,20,9,40,99,10.3
588,geopolymer,nano-CaCO3,50.81,22.31,6.43,8.67,1.42,1.46,0,0,70,20,9,40,99,15.2
589,geopolymer,nano-CaCO3,50.81,22.31,6.43,8.67,1.42,1.46,0,0,70,20,10.5,40,99,21.4
590,geopolymer,nano-CaCO3,50.81,22.31,6.43,8.67,1.42,1.46,0,0,70,20,10.5,40,99,25.6
591,geopolymer,nano-CaCO3,50.81,22.31,6.43,8.67,1.42,1.46,0,0,70,20,10.5,40,99,19.2
592,geopolymer,nano-CaCO3,50.81,22.31,6.43,8.67,1.42,1.46,0,0,70,20,12,40,99,20.3
593,geopolymer,nano-CaCO3,50.81,22.31,6.43,8.67,1.42,1.46,0,0,70,20,12,40,99,17.5
594,geopolymer,nano-CaCO3,50.81,22.31,6.43,8.67,1.42,1.46,0,0,70,20,12,40,99,15.2
595,paste,nano-Al2O3,29.32,12.96,15.64,25.79,2.94,,0,0,23,23,0,13,99.38,29.6
596,paste,nano-Al2O3,29.32,12.96,15.64,25.79,2.94,,0,0,23,23,1,13,99.38,36.2
597,paste,nano-Al2O3,29.32,12.96,15.64,25.79,2.94,,0,0,23,23,2,13,99.38,37.1
598,paste,nano-Al2O3,29.32,12.96,15.64,25.79,2.94,,0,0,23,23,3,13,99.38,31.4
599,mortar,Nano-TiO2,48.325,26.53,0.975,17.885,3.015,0.565,0,1950,20,20,0,13,99.55,63.49
600,mortar,Nano-TiO2,48.325,26.53,0.975,17.885,3.015,0.565,0,1950,20,20,10,13,99.55,65.71
601,mortar,Nano-TiO2,48.325,26.53,0.975,17.885,3.015,0.565,0,1950,20,20,20,13,99.55,66.03
602,mortar,Nano-Al2O3,48.325,26.53,0.975,17.885,3.015,0.565,0,1950,20,20,10,18,99.5,66.35
603,mortar,Nano-Al2O3,48.325,26.53,0.975,17.885,3.015,0.565,0,1950,20,20,20,18,99.5,66.67
604,paste,nano-CaCO3,62.3,26.7,2.98,2.61,0.66,1.42,0,0,80,23,0,30,97.5,19.98
605,paste,nano-CaCO3,62.3,26.7,2.98,2.61,0.66,1.42,0,0,80,23,1,30,97.5,25.22
606,paste,nano-CaCO3,62.3,26.7,2.98,2.61,0.66,1.42,0,0,80,23,2,30,97.5,29.52
607,paste,nano-CaCO3,62.3,26.7,2.98,2.61,0.66,1.42,0,0,80,23,3,30,97.5,34.31
608,concrete,nano-CaO,69.1,12.13,1.58,2.53,0.25,,,,90,23,0,100,,26.5
609,concrete,nano-CaO,69.1,12.13,1.58,2.53,0.25,,,,90,23,5,100,,24.64
610,concrete,nano-CaO,69.1,12.13,1.58,2.53,0.25,,,,90,23,10,100,,22.43
611,concrete,nano-CaO,69.1,12.13,1.58,2.53,0.25,,,,90,23,15,100,,26.4
612,concrete,Nano-Al2O3,69.1,12.13,1.58,2.53,0.25,,,,90,23,5,78,,29.99
613,concrete,Nano-Al2O3,69.1,12.13,1.58,2.53,0.25,,,,90,23,10,78,,31.13
614,concrete,Nano-Al2O3,69.1,12.13,1.58,2.53,0.25,,,,90,23,15,78,,31.2
615,concrete,Nano-Al2O3,28.17,8.6,0.42,47.75,3.89,0.2,703.3,819.5,23,23,0,25,99.9,59.3
616,concrete,Nano-Al2O3,28.17,8.6,0.42,47.75,3.89,0.2,702.6,818.7,23,23,25,25,99.9,59.7
617,concrete,Nano-Al2O3,28.17,8.6,0.42,47.75,3.89,0.2,701.9,817.9,23,23,50,25,99.9,60.8
618,concrete,Nano-Al2O3,28.17,8.6,0.42,47.75,3.89,0.2,701.3,817.1,23,23,75,25,99.9,73.6
619,concrete,Nano-Al2O3,38.3,12.875,6.19,31.615,2.62,0.835,700.6,816.3,23,23,0,25,99.9,52.2
620,concrete,Nano-Al2O3,38.3,12.875,6.19,31.615,2.62,0.835,643.9,750.2,23,23,25,25,99.9,68.1
621,concrete,Nano-Al2O3,38.3,12.875,6.19,31.615,2.62,0.835,643.8,750.2,23,23,50,25,99.9,69
622,concrete,Nano-Al2O3,38.3,12.875,6.19,31.615,2.62,0.835,643.7,750.1,23,23,75,25,99.9,69.5
623,concrete,Nano-Al2O3,48.43,17.15,11.96,15.48,1.35,1,643.6,749.9,23,23,0,25,99.9,34.5
624,concrete,Nano-Al2O3,48.43,17.15,11.96,15.48,1.35,1.47,643.5,749.8,23,23,25,25,99.9,37.7
625,concrete,Nano-Al2O3,48.43,17.15,11.96,15.48,1.35,1.47,673.6,784.9,23,23,50,25,99.9,40.9
626,concrete,Nano-Al2O3,48.43,17.15,11.96,15.48,1.35,1.47,673.2,784.4,23,23,75,25,99.9,38.8
627,geopolymer,nano-CaCO3,63.13,24.88,3.07,2.58,0.61,1.45,0,0,80,23,0,30,97.5,19.1
628,geopolymer,nano-CaCO3,63.13,24.88,3.07,2.58,0.61,1.45,0,0,80,23,1,30,97.5,25.4
629,geopolymer,nano-CaCO3,63.13,24.88,3.07,2.58,0.61,1.45,0,0,80,23,2,30,97.5,21.8
630,geopolymer,nano-CaCO3,63.13,24.88,3.07,2.58,0.61,1.45,0,0,80,23,3,30,97.5,25.5
631,mortar,nano-PbO,33.1,15.9,1.53,37.36,6.18,0.52,0,1100,100,20,0,10,,21.55
632,mortar,nano-PbO,33.1,15.9,1.53,37.36,6.18,0.52,0,1100,100,20,4,10,,39.91
633,mortar,nano-PbO,33.1,15.9,1.53,37.36,6.18,0.52,0,1100,100,20,12,10,,41.79
634,mortar,nano-PbO,33.1,15.9,1.53,37.36,6.18,0.52,0,1100,100,20,20,10,,38.03
635,paste,nano-ZnO,55.9,28.1,6.97,3.84,0.93,,0,0,27,27,0,40,99.8,72.7
636,paste,nano-ZnO,55.9,28.1,6.97,3.84,0.93,,0,0,27,27,12.5,40,99.8,51.61
637,paste,nano-ZnO,55.9,28.1,6.97,3.84,0.93,,0,0,27,27,25,40,99.8,35.56
638,paste,nano-ZnO,55.9,28.1,6.97,3.84,0.93,,0,0,27,27,37.5,40,99.8,33.2
639,paste,nano-ZnO,55.9,28.1,6.97,3.84,0.93,,0,0,27,27,50,40,99.8,40.3
640,geopolymer,Nano-TiO2,38.33,7.11,2.96,35.38,5.4,9.49,0,0,,,0,28,99,35.55
641,geopolymer,Nano-TiO2,42.684,8.524,3.79,29.974,5.244,7.972,0,0,,,0,28,99,38.58
642,geopolymer,Nano-TiO2,47.038,9.938,4.62,24.568,5.088,6.454,0,0,,,0,28,99,31.88
643,geopolymer,Nano-TiO2,51.392,11.352,5.45,19.162,4.932,4.936,0,0,,,0,28,99,24.72
644,geopolymer,Nano-TiO2,42.684,8.524,3.79,29.974,5.244,7.972,0,0,,,0.5,28,99,41.71
645,geopolymer,Nano-TiO2,42.684,8.524,3.79,29.974,5.244,7.972,0,0,,,1,28,99,40.13
646,geopolymer,Nano-TiO2,59.59,34.91,1.52,0.2,0.05,0.82,0,0,,,0,21,99.7,
647,geopolymer,Nano-TiO2,59.59,34.91,1.52,0.2,0.05,0.82,0,0,,,0.5,21,99.7,
648,geopolymer,Nano-TiO2,59.59,34.91,1.52,0.2,0.05,0.82,0,0,,,1,21,99.7,
649,geopolymer,Nano-TiO2,38.01,9.95,1.85,34.32,10.04,0.33,0,0,,,0,21,99.7,
650,geopolymer,Nano-TiO2,38.01,9.95,1.85,34.32,10.04,0.33,0,0,,,0.5,21,99.7,
651,geopolymer,Nano-TiO2,38.01,9.95,1.85,34.32,10.04,0.33,0,0,,,1,21,99.7,
652,geopolymer,Nano-TiO2,48.8,22.43,1.685,17.26,5.045,0.575,0,0,,,0,21,99.7,
653,geopolymer,Nano-TiO2,48.8,22.43,1.685,17.26,5.045,0.575,0,0,,,0.5,21,99.7,
654,geopolymer,Nano-TiO2,48.8,22.43,1.685,17.26,5.045,0.575,0,0,,,1,21,99.7,
655,mortar,-,35.4,17.4,1.4,36.87,6.83,0.23,0,300,25,25,0,,99.8,27.38
656,mortar,Titania nano- particles,35.4,17.4,1.4,36.87,6.83,0.23,0,300,25,25,1,72,99.8,33.23
657,mortar,Titania nano- particles,35.4,17.4,1.4,36.87,6.83,0.23,0,300,25,25,3,72,99.8,31.96
658,mortar,Titania nano- particles,35.4,17.4,1.4,36.87,6.83,0.23,0,300,25,25,5,72,99.8,31.25
659,mortar,Magnesia nano- particles,35.4,17.4,1.4,36.87,6.83,0.23,0,300,25,25,1,34,99.8,28.84
660,mortar,Magnesia nano- particles,35.4,17.4,1.4,36.87,6.83,0.23,0,300,25,25,3,34,99.8,34.37
661,mortar,Magnesia nano- particles,35.4,17.4,1.4,36.87,6.83,0.23,0,300,25,25,5,34,99.8,30.64
662,mortar,-,50.92,25.18,2.79,11.33,2.59,2.88,,1632,23,23,0,,,4
663,mortar,-,46.47,22.22,2.26,19.2,3.34,2.68,,1632,23,23,0,,,30
664,mortar,-,44.24,20.73,2,23.14,3.71,2.58,,1632,23,23,0,,,42.1
665,mortar,-,42.01,19.25,1.74,27.08,4.08,2.48,,1632,23,23,0,,,48.2
666,mortar,-,37.56,16.29,1.21,34.95,4.83,2.28,,1632,23,23,0,,,59.5
667,mortar,high-halloysite kaolin nanoparticles,44.31,21.26,1.95,22.45,3.6,2.91,,1632,23,23,28.8,,,45.6
668,mortar,high-halloysite kaolin nanoparticles,44.38,21.79,1.91,21.75,3.5,3.25,,1632,23,23,57.6,,,48.2
669,mortar,high-halloysite kaolin nanoparticles,44.45,22.32,1.86,21.06,3.39,3.58,,1632,23,23,86.4,,,43.6
670,mortar,low-halloysite kaolin nanoparticles,44.92,20.83,1.99,22.46,3.61,2.6,,1632,23,23,28.8,,,42
671,mortar,low-halloysite kaolin nanoparticles,45.61,20.92,1.98,21.77,3.5,2.61,,1632,23,23,57.6,,,40.6
672,mortar,low-halloysite kaolin nanoparticles,46.29,21.01,1.97,21.09,3.4,2.63,,1632,23,23,86.4,,,39.7
673,geopolymer,nano-ZrO2,56,38.1,,,,,0,0,80,23,0,97,,33.17
674,geopolymer,nano-ZrO2,56,38.1,,,,,0,0,80,23,2,97,,40.16
675,geopolymer,nano-ZrO2,56,38.1,,,,,0,0,80,23,5,97,,52.73
676,geopolymer,nano-ZrO2,56,38.1,,,,,0,0,80,23,10,97,,32.52
677,geopolymer,nano-ZrO2,56,38.1,,,,,0,0,80,23,15,97,,31.68